File: Results/Py_dosed_spectra/TiO2_py_dosed_spectrum.csv
,wavenumber,absorbance,absorbance_byweight
0,4000.12,0.009011984,0.000728326
5,3997.71,0.008764744,0.000708345
10,3995.3,0.007929802,0.000640867
15,3992.89,0.007485628,0.0006049696
20,3990.48,0.00639665,0.000516961
25,3988.07,0.0074749,0.000604103
30,3985.66,0.0100853,0.000815072
35,3983.25,0.00866604,0.000700367
40,3980.84,0.0071851,0.000580682
45,3978.43,0.007194519,0.000581443
50,3976.02,0.007686019,0.000621165
55,3973.61,0.00762582,0.000616299
60,3971.2,0.008187771,0.000661715
65,3968.78,0.009262204,0.0007485481
70,3966.37,0.00779295,0.0006298066
75,3963.96,0.005825758,0.0004708231
80,3961.55,0.00709558,0.000573447
85,3959.14,0.008518696,0.00068846
90,3956.73,0.007962704,0.0006435257
95,3954.32,0.00780082,0.000630442
100,3951.91,0.00629306,0.000508589
105,3949.5,0.006511688,0.000526258
110,3947.09,0.00603175,0.000487471
115,3944.68,0.006136894,0.0004959684
120,3942.27,0.00655866,0.000530054
125,3939.86,0.0063411,0.0005124717
130,3937.45,0.007888913,0.000637562
135,3935.04,0.008064389,0.000651744
140,3932.63,0.0067029,0.0005417115
145,3930.22,0.005849123,0.0004727114
150,3927.8,0.00560081,0.000452643
155,3925.39,0.00515509,0.000416621
160,3922.98,0.00557435,0.0004505046
165,3920.57,0.00522804,0.000422517
170,3918.16,0.005248308,0.000424155
175,3915.75,0.006734967,0.0005443031
180,3913.34,0.00649023,0.000524524
185,3910.93,0.00616086,0.000497905
190,3908.52,0.006408334,0.0005179054
195,3906.11,0.00578892,0.000467846
200,3903.7,0.005112648,0.000413191
205,3901.29,0.005416155,0.00043772
210,3898.88,0.00554204,0.000447894
215,3896.47,0.00683475,0.000552367
220,3894.06,0.00607491,0.000490959
225,3891.65,0.00524175,0.0004236252
230,3889.24,0.006325364,0.0005112
235,3886.82,0.005215168,0.000421477
240,3884.41,0.004142165,0.0003347594
245,3882,0.004270315,0.000345116
250,3879.59,0.003917694,0.000316618
255,3877.18,0.00445783,0.000360271
260,3874.77,0.00378633,0.0003060013
265,3872.36,0.00416851,0.000336889
270,3869.95,0.00443089,0.000358093
275,3867.54,0.00421798,0.000340887
280,3865.13,0.00463283,0.0003744137
285,3862.72,0.00444198,0.000358989
290,3860.31,0.00507879,0.000410455
295,3857.9,0.0055064,0.0004450131
300,3855.49,0.00507915,0.000410484
305,3853.08,0.00385416,0.000311483
310,3850.67,0.00385916,0.0003118878
315,3848.26,0.00409472,0.000330925
320,3845.84,0.005010247,0.000404916
325,3843.43,0.004627824,0.000374009
330,3841.02,0.00263393,0.000212868
335,3838.61,0.001627922,0.000131565
340,3836.2,0.00235188,0.000190073
345,3833.79,0.00306344,0.00024758
350,3831.38,0.0037353,0.000301878
355,3828.97,0.004333973,0.0003502608
360,3826.56,0.00491929,0.0003975647
365,3824.15,0.004985094,0.000402883
370,3821.74,0.00355351,0.0002871857
375,3819.33,0.00388086,0.0003136412
380,3816.92,0.004153371,0.000335665
385,3814.51,0.00429904,0.000347438
390,3812.1,0.005114317,0.000413326
395,3809.69,0.0047878,0.000386938
400,3807.28,0.00306225,0.0002474832
405,3804.87,0.00137234,0.000110909
410,3802.45,0.0007058382,5.70441e-05
415,3800.04,0.0006556511,5.298807e-05
420,3797.63,0.0017041,0.000137721
425,3795.22,0.00124657,0.000100745
430,3792.81,-0.0005568266,-4.50013e-05
435,3790.4,-0.00236869,-0.000191431
440,3787.99,-0.00356066,-0.000287764
445,3785.58,-0.004776716,-0.0003860422
450,3783.17,-0.00549555,-0.000444136
455,3780.76,-0.00415957,-0.000336166
460,3778.35,-0.0019325,-0.00015618
465,3775.94,-0.00104451,-8.44148e-05
470,3773.53,-0.00151956,-0.000122807
475,3771.12,-0.00221777,-0.000179235
480,3768.71,-0.00211871,-0.000171229
485,3766.3,-0.0005762577,-4.65717e-05
490,3763.89,0.000556111,4.494352e-05
495,3761.47,0.00104868,8.475201e-05
500,3759.06,-0.000346184,-2.79777e-05
505,3756.65,-0.000555158,-4.48664e-05
510,3754.24,-0.0005146265,-4.159082e-05
515,3751.83,-0.00300133,-0.00024256
520,3749.42,0.0007224083,5.83832e-05
525,3747.01,0.0104722,0.000846335
530,3744.6,-0.008188963,-0.0006618114
535,3742.19,-0.0546668,-0.00441803
540,3739.78,-0.0663016,-0.005358327
545,3737.37,-0.06629324,-0.005357653
550,3734.96,-0.06337166,-0.005121538
555,3732.55,-0.0512855,-0.00414477
560,3730.14,-0.0305676,-0.0024704
565,3727.73,-0.0143085,-0.00115637
570,3725.32,-0.00496149,-0.0004009752
575,3722.91,0.00174284,0.000140852
580,3720.49,0.004624963,0.000373778
585,3718.08,0.00954771,0.000771622
590,3715.67,0.0116535,0.00094181
595,3713.26,0.011579,0.0009357886
600,3710.85,0.013041,0.00105394
605,3708.44,0.0152607,0.00123333
610,3706.03,0.01650238,0.00133368
615,3703.62,0.0154541,0.00124896
620,3701.21,0.01476717,0.00119345
625,3698.8,0.0167067,0.00135019
630,3696.39,0.0155871,0.00125971
635,3693.98,0.0161173,0.00130256
640,3691.57,0.0157838,0.001275606
645,3689.16,0.0152357,0.001231308
650,3686.75,0.015561,0.0012576
655,3684.34,0.0148973,0.00120397
660,3681.93,0.0152632,0.00123353
665,3679.51,0.01482904,0.00119845
670,3677.1,0.0142156,0.00114887
675,3674.69,0.011254,0.0009095162
680,3672.28,0.0095824,0.0007744255
685,3669.87,0.008569002,0.0006925252
690,3667.46,0.009390235,0.0007588952
695,3665.05,0.0105196,0.0008501695
700,3662.64,0.0117162,0.0009468776
705,3660.23,0.0115508,0.0009335053
710,3657.82,0.009727478,0.00078615
715,3655.41,0.009346485,0.0007553594
720,3653,0.008272409,0.0006685553
725,3650.59,0.00566721,0.00045801
730,3648.18,0.004055023,0.000327717
735,3645.77,0.00194502,0.000157192
740,3643.36,-0.000520229,-4.20436e-05
745,3640.95,-0.00405288,-0.000327543
750,3638.53,-0.0115557,-0.0009339003
755,3636.12,-0.0236995,-0.00191534
760,3633.71,-0.0411301,-0.00332403
765,3631.3,-0.06871593,-0.00555345
770,3628.89,-0.105767,-0.008547786
775,3626.48,-0.134481,-0.0108684
780,3624.07,-0.129277,-0.0104478
785,3621.66,-0.09947562,-0.008039369
790,3619.25,-0.0679237,-0.00548942
795,3616.84,-0.0441501,-0.0035681
800,3614.43,-0.0293734,-0.002373885
805,3612.02,-0.021517,-0.00173895
810,3609.61,-0.018616,-0.0015045
815,3607.2,-0.018568,-0.00150062
820,3604.79,-0.0183258,-0.00148105
825,3602.38,-0.0176728,-0.00142827
830,3599.97,-0.01672721,-0.00135185
835,3597.55,-0.0164974,-0.00133328
840,3595.14,-0.0174872,-0.001413269
845,3592.73,-0.0155283,-0.00125496
850,3590.32,-0.0107815,-0.000871336
855,3587.91,-0.00677907,-0.0005478678
860,3585.5,-0.001205802,-9.744988e-05
865,3583.09,0.0011189,9.04266e-05
870,3580.68,0.0002104044,1.70044e-05
875,3578.27,-0.001306057,-0.000105552
880,3575.86,-0.00413835,-0.0003344511
885,3573.45,-0.008652568,-0.0006992788
890,3571.04,-0.0181553,-0.00146727
895,3568.63,-0.0350685,-0.002834149
900,3566.22,-0.05717516,-0.00462075
905,3563.81,-0.07554269,-0.00610517
910,3561.4,-0.07908416,-0.006391383
915,3558.99,-0.06791842,-0.005488996
920,3556.57,-0.0533077,-0.00430819
925,3554.16,-0.0417591,-0.003374868
930,3551.75,-0.0352972,-0.00285263
935,3549.34,-0.0312625,-0.002526558
940,3546.93,-0.0274233,-0.002216279
945,3544.52,-0.0207938,-0.0016805
950,3542.11,-0.0137399,-0.00111043
955,3539.7,-0.008117199,-0.000656012
960,3537.29,-0.00351179,-0.000283814
965,3534.88,-9.179115e-06,-7.41833e-07
970,3532.47,0.00199997,0.0001616329
975,3530.06,0.004432559,0.000358228
980,3527.65,0.005549431,0.000448491
985,3525.24,0.00601792,0.000486353
990,3522.83,0.0062027,0.0005012864
995,3520.42,0.007604718,0.0006145942
1000,3518.01,0.008297682,0.0006705978
1005,3515.6,0.009334564,0.000754396
1010,3513.18,0.009566426,0.0007731345
1015,3510.77,0.010131,0.000818762
1020,3508.36,0.0102621,0.0008293597
1025,3505.95,0.0105174,0.0008499865
1030,3503.54,0.0109998,0.0008889761
1035,3501.13,0.0118539,0.0009580051
1040,3498.72,0.0121983,0.0009858382
1045,3496.31,0.0122621,0.0009909925
1050,3493.9,0.0122098,0.0009867632
1055,3491.49,0.0123597,0.0009988829
1060,3489.08,0.0133722,0.00108071
1065,3486.67,0.0134426,0.0010864
1070,3484.26,0.01360774,0.00109974
1075,3481.85,0.0141134,0.00114061
1080,3479.44,0.01443243,0.00116639
1085,3477.03,0.01437366,0.00116164
1090,3474.62,0.0138075,0.00111589
1095,3472.2,0.0141509,0.00114364
1100,3469.79,0.0151353,0.0012232
1105,3467.38,0.0150748,0.00121831
1110,3464.97,0.0154045,0.00124495
1115,3462.56,0.0157301,0.00127127
1120,3460.15,0.0153464,0.00124026
1125,3457.74,0.01522851,0.00123073
1130,3455.33,0.0154552,0.00124905
1135,3452.92,0.0153764,0.001242686
1140,3450.51,0.0150814,0.00121884
1145,3448.1,0.015201,0.0012285
1150,3445.69,0.0154465,0.00124835
1155,3443.28,0.0150695,0.00121788
1160,3440.87,0.0146929,0.00118744
1165,3438.46,0.0148228,0.00119794
1170,3436.05,0.01441288,0.00116481
1175,3433.64,0.014165,0.00114478
1180,3431.22,0.0145808,0.00117839
1185,3428.81,0.01439178,0.00116311
1190,3426.4,0.01446414,0.00116896
1195,3423.99,0.0144867,0.00117078
1200,3421.58,0.0141028,0.00113975
1205,3419.17,0.0144428,0.00116723
1210,3416.76,0.0150518,0.001216452
1215,3414.35,0.0146161,0.001181239
1220,3411.94,0.0140452,0.0011351
1225,3409.53,0.0143636,0.00116083
1230,3407.12,0.0142846,0.00115445
1235,3404.71,0.0141221,0.00114131
1240,3402.3,0.0139213,0.00112508
1245,3399.89,0.0142407,0.001150901
1250,3397.48,0.0138896,0.00112252
1255,3395.07,0.0141466,0.00114329
1260,3392.66,0.0144044,0.00116413
1265,3390.24,0.0142858,0.00115454
1270,3387.83,0.0141071,0.001140101
1275,3385.42,0.0139904,0.00113067
1280,3383.01,0.0140079,0.00113209
1285,3380.6,0.0146056,0.00118039
1290,3378.19,0.01441,0.00116458
1295,3375.78,0.0147123,0.00118901
1300,3373.37,0.0151626,0.0012254
1305,3370.96,0.0150619,0.00121726
1310,3368.55,0.015262,0.00123344
1315,3366.14,0.0150648,0.0012175
1320,3363.73,0.01505661,0.00121684
1325,3361.32,0.0151839,0.00122713
1330,3358.91,0.0158509,0.00128103
1335,3356.5,0.0165523,0.00133772
1340,3354.09,0.0163765,0.00132351
1345,3351.68,0.0159739,0.00129097
1350,3349.26,0.0160954,0.00130079
1355,3346.85,0.01701498,0.00137511
1360,3344.44,0.01699984,0.00137388
1365,3342.03,0.0169243,0.00136778
1370,3339.62,0.0176785,0.00142873
1375,3337.21,0.01831603,0.00148026
1380,3334.8,0.0186288,0.00150554
1385,3332.39,0.0182235,0.00147278
1390,3329.98,0.018698,0.00151112
1395,3327.57,0.0194165,0.00156919
1400,3325.16,0.0196769,0.00159024
1405,3322.75,0.020041,0.00161966
1410,3320.34,0.0207528,0.00167719
1415,3317.93,0.021261,0.00171826
1420,3315.52,0.0214992,0.00173751
1425,3313.11,0.02198124,0.00177647
1430,3310.7,0.0226885,0.00183363
1435,3308.28,0.0234226,0.00189296
1440,3305.87,0.0240984,0.00194757
1445,3303.46,0.024959,0.002017121
1450,3301.05,0.02589333,0.00209263
1455,3298.64,0.0270761,0.00218822
1460,3296.23,0.0284349,0.002298035
1465,3293.82,0.0294206,0.0023777
1470,3291.41,0.0302248,0.00244269
1475,3289,0.03134072,0.002532878
1480,3286.59,0.03279698,0.00265057
1485,3284.18,0.0343366,0.002774995
1490,3281.77,0.03527713,0.002851009
1495,3279.36,0.0365335,0.00295254
1500,3276.95,0.0379841,0.00306978
1505,3274.54,0.0393364,0.00317907
1510,3272.13,0.0409868,0.00331245
1515,3269.72,0.0425869,0.003441768
1520,3267.3,0.0438118,0.00354076
1525,3264.89,0.04550743,0.003677796
1530,3262.48,0.04719901,0.00381451
1535,3260.07,0.0486156,0.00392899
1540,3257.66,0.0497998,0.00402469
1545,3255.25,0.0508828,0.00411222
1550,3252.84,0.0516368,0.00417316
1555,3250.43,0.0529348,0.00427805
1560,3248.02,0.05409324,0.00437168
1565,3245.61,0.0544121,0.00439745
1570,3243.2,0.05458653,0.004411546
1575,3240.79,0.0550731,0.004450873
1580,3238.38,0.05525732,0.004465758
1585,3235.97,0.0554552,0.00448175
1590,3233.56,0.05534309,0.00447269
1595,3231.15,0.054907,0.004437443
1600,3228.74,0.0544218,0.00439824
1605,3226.33,0.0531704,0.0042971
1610,3223.91,0.0516792,0.00417658
1615,3221.5,0.04968202,0.004015176
1620,3219.09,0.0481436,0.00389085
1625,3216.68,0.0465332,0.0037607
1630,3214.27,0.0452262,0.003655069
1635,3211.86,0.0443684,0.00358574
1640,3209.45,0.04411161,0.00356499
1645,3207.04,0.0444938,0.00359588
1650,3204.63,0.0448583,0.003625338
1655,3202.22,0.0461642,0.003730871
1660,3199.81,0.0481372,0.00389033
1665,3197.4,0.05013573,0.00405184
1670,3194.99,0.052413,0.00423589
1675,3192.58,0.05511558,0.0044543
1680,3190.17,0.05816251,0.004700548
1685,3187.76,0.06194842,0.00500652
1690,3185.35,0.066187,0.005349069
1695,3182.93,0.07045424,0.00569393
1700,3180.52,0.07413483,0.00599139
1705,3178.11,0.07698619,0.00622183
1710,3175.7,0.07915485,0.006397096
1715,3173.29,0.08067298,0.00651979
1720,3170.88,0.0818407,0.006614159
1725,3168.47,0.08257842,0.00667378
1730,3166.06,0.08307433,0.00671386
1735,3163.65,0.08298659,0.00670677
1740,3161.24,0.0824967,0.00666718
1745,3158.83,0.08201647,0.006628365
1750,3156.42,0.081803,0.00661111
1755,3154.01,0.0823472,0.00665509
1760,3151.6,0.0835166,0.0067496
1765,3149.19,0.0861508,0.00696249
1770,3146.78,0.0909963,0.007354094
1775,3144.37,0.09993249,0.008076292
1780,3141.95,0.113888,0.00920411
1785,3139.54,0.126658,0.0102362
1790,3137.13,0.128226,0.0103629
1795,3134.72,0.119224,0.009635346
1800,3132.31,0.108794,0.008792475
1805,3129.9,0.102042,0.008246808
1810,3127.49,0.09953213,0.008043936
1815,3125.08,0.09989971,0.008073643
1820,3122.67,0.103485,0.0083634
1825,3120.26,0.110882,0.008961193
1830,3117.85,0.123718,0.00999857
1835,3115.44,0.142796,0.01154045
1840,3113.03,0.167501,0.013537
1845,3110.62,0.194041,0.0156819
1850,3108.21,0.213513,0.0172556
1855,3105.8,0.2179228,0.017612
1860,3103.39,0.20845,0.0168464
1865,3100.97,0.192587,0.0155644
1870,3098.56,0.177157,0.0143174
1875,3096.15,0.164036,0.013257
1880,3093.74,0.15361,0.0124144
1885,3091.33,0.146517,0.0118411
1890,3088.92,0.141842,0.0114633
1895,3086.51,0.139195,0.0112494
1900,3084.1,0.138727,0.0112116
1905,3081.69,0.141211,0.0114123
1910,3079.28,0.147849,0.0119488
1915,3076.87,0.160304,0.0129554
1920,3074.46,0.175839,0.0142109
1925,3072.05,0.1828838,0.0147802
1930,3069.64,0.173144,0.013993
1935,3067.23,0.155336,0.0125539
1940,3064.82,0.13988,0.0113047
1945,3062.41,0.129029,0.0104278
1950,3059.99,0.121523,0.009821161
1955,3057.58,0.116244,0.009394535
1960,3055.17,0.112475,0.009089983
1965,3052.76,0.109645,0.008861195
1970,3050.35,0.107254,0.008667963
1975,3047.94,0.105526,0.008528339
1980,3045.53,0.1041885,0.008420253
1985,3043.12,0.103425,0.00835857
1990,3040.71,0.102687,0.00829892
1995,3038.3,0.102149,0.008255412
2000,3035.89,0.102171,0.008257237
2005,3033.48,0.102388,0.008274704
2010,3031.07,0.102336,0.008270557
2015,3028.66,0.101396,0.008194567
2020,3026.25,0.0999018,0.008073811
2025,3023.84,0.09739357,0.0078711
2030,3021.43,0.09424329,0.00761651
2035,3019.01,0.09097004,0.00735197
2040,3016.6,0.08774543,0.007091365
2045,3014.19,0.08416581,0.006802069
2050,3011.78,0.0804247,0.006499724
2055,3009.37,0.07736337,0.006252313
2060,3006.96,0.0746674,0.006034431
2065,3004.55,0.07256788,0.00586475
2070,3002.14,0.07141656,0.00577171
2075,2999.73,0.0711357,0.005749008
2080,2997.32,0.0714891,0.005777569
2085,2994.91,0.07248491,0.00585805
2090,2992.5,0.07446897,0.006018395
2095,2990.09,0.0772634,0.00624423
2100,2987.68,0.0807246,0.006523959
2105,2985.27,0.0848161,0.00685462
2110,2982.86,0.08906931,0.00719836
2115,2980.45,0.0930317,0.00751859
2120,2978.03,0.09591812,0.007751861
2125,2975.62,0.0971837,0.007854142
2130,2973.21,0.0964692,0.007796395
2135,2970.8,0.09507221,0.007683497
2140,2968.39,0.09439367,0.00762866
2145,2965.98,0.09410459,0.007605296
2150,2963.57,0.0933785,0.007546619
2155,2961.16,0.09278673,0.00749879
2160,2958.75,0.0920409,0.007438514
2165,2956.34,0.09110755,0.007363083
2170,2953.93,0.09006798,0.00727907
2175,2951.52,0.08902323,0.00719463
2180,2949.11,0.08772367,0.00708961
2185,2946.7,0.08618325,0.00696511
2190,2944.29,0.08445585,0.006825509
2195,2941.88,0.08261013,0.006676343
2200,2939.47,0.08083707,0.00653305
2205,2937.05,0.07916993,0.00639831
2210,2934.64,0.07787019,0.006293273
2215,2932.23,0.07711804,0.006232486
2220,2929.82,0.07677168,0.006204494
2225,2927.41,0.0770058,0.00622342
2230,2925,0.07797444,0.0063017
2235,2922.59,0.0794343,0.00641968
2240,2920.18,0.08173764,0.00660583
2245,2917.77,0.08448374,0.00682776
2250,2915.36,0.08730286,0.007055598
2255,2912.95,0.08986288,0.007262492
2260,2910.54,0.09253526,0.00747847
2265,2908.13,0.0950939,0.00768525
2270,2905.72,0.09726268,0.00786053
2275,2903.31,0.09935057,0.00802926
2280,2900.9,0.101185,0.008177495
2285,2898.49,0.103264,0.008345559
2290,2896.08,0.105431,0.008520666
2295,2893.66,0.107627,0.008698156
2300,2891.25,0.110017,0.008891317
2305,2888.84,0.112386,0.009082734
2310,2886.43,0.114673,0.00926759
2315,2884.02,0.117037,0.009458598
2320,2881.61,0.118844,0.00960464
2325,2879.2,0.119678,0.009672052
2330,2876.79,0.119266,0.009638805
2335,2874.38,0.1176551,0.009508589
2340,2871.97,0.115043,0.009297509
2345,2869.56,0.111863,0.009040493
2350,2867.15,0.109325,0.008835352
2355,2864.74,0.107383,0.008678439
2360,2862.33,0.106323,0.0085928
2365,2859.92,0.106465,0.008604246
2370,2857.51,0.107642,0.00869936
2375,2855.1,0.109211,0.008826137
2380,2852.68,0.111403,0.009003319
2385,2850.27,0.113965,0.009210357
2390,2847.86,0.115912,0.009367718
2395,2845.45,0.117598,0.00950397
2400,2843.04,0.118988,0.009616285
2405,2840.63,0.119985,0.009696861
2410,2838.22,0.120419,0.009731963
2415,2835.81,0.120393,0.009729886
2420,2833.4,0.120394,0.009729926
2425,2830.99,0.120219,0.009715778
2430,2828.58,0.120302,0.00972254
2435,2826.17,0.120851,0.009766892
2440,2823.76,0.121355,0.009807572
2445,2821.35,0.122094,0.009867299
2450,2818.94,0.122627,0.009910379
2455,2816.53,0.122725,0.009918337
2460,2814.12,0.122715,0.009917499
2465,2811.7,0.122425,0.009894087
2470,2809.29,0.121998,0.009859601
2475,2806.88,0.1214,0.009811237
2480,2804.47,0.120465,0.009735696
2485,2802.06,0.119453,0.009653892
2490,2799.65,0.118329,0.009563042
2495,2797.24,0.116843,0.009442942
2500,2794.83,0.115314,0.009319398
2505,2792.42,0.113988,0.009212198
2510,2790.01,0.112604,0.009100393
2515,2787.6,0.111448,0.009006942
2520,2785.19,0.110869,0.008960182
2525,2782.78,0.110812,0.008955567
2530,2780.37,0.111211,0.008987832
2535,2777.96,0.11197,0.009049144
2540,2775.55,0.112931,0.00912678
2545,2773.14,0.114013,0.009214231
2550,2770.72,0.114782,0.009276414
2555,2768.31,0.115425,0.009328323
2560,2765.9,0.115806,0.009359144
2565,2763.49,0.115957,0.009371374
2570,2761.08,0.116149,0.009386871
2575,2758.67,0.115827,0.00936081
2580,2756.26,0.11482,0.009279459
2585,2753.85,0.113523,0.009174664
2590,2751.44,0.111797,0.009035146
2595,2749.03,0.10999,0.0088891
2600,2746.62,0.108347,0.008756317
2605,2744.21,0.107047,0.008651305
2610,2741.8,0.106125,0.00857674
2615,2739.39,0.105216,0.008503285
2620,2736.98,0.104485,0.008444237
2625,2734.57,0.103906,0.0083974
2630,2732.16,0.1032002,0.00834038
2635,2729.74,0.102566,0.008289127
2640,2727.33,0.102142,0.008254882
2645,2724.92,0.101907,0.008235893
2650,2722.51,0.1019997,0.00824336
2655,2720.1,0.102459,0.008280441
2660,2717.69,0.103183,0.008338983
2665,2715.28,0.104011,0.008405942
2670,2712.87,0.104854,0.008474074
2675,2710.46,0.10584,0.008553725
2680,2708.05,0.106743,0.008626723
2685,2705.64,0.107433,0.008682476
2690,2703.23,0.107978,0.008726505
2695,2700.82,0.108267,0.008749872
2700,2698.41,0.107963,0.00872531
2705,2696,0.107325,0.008673709
2710,2693.59,0.106454,0.008603326
2715,2691.18,0.105324,0.008512
2720,2688.76,0.104028,0.008407266
2725,2686.35,0.102927,0.0083183
2730,2683.94,0.102154,0.008255792
2735,2681.53,0.101699,0.008219086
2740,2679.12,0.1017009,0.008219211
2745,2676.71,0.101997,0.008243114
2750,2674.3,0.102388,0.008274724
2755,2671.89,0.103029,0.00832657
2760,2669.48,0.103756,0.008385315
2765,2667.07,0.104252,0.008425388
2770,2664.66,0.104255,0.008425658
2775,2662.25,0.103931,0.008399452
2780,2659.84,0.103268,0.008345857
2785,2657.43,0.102855,0.008312508
2790,2655.02,0.102418,0.008277137
2795,2652.61,0.101705,0.008219544
2800,2650.2,0.101046,0.008166276
2805,2647.78,0.100385,0.00811283
2810,2645.37,0.09964824,0.00805332
2815,2642.96,0.09900689,0.008001488
2820,2640.55,0.0985014,0.007960639
2825,2638.14,0.09795314,0.007916327
2830,2635.73,0.09742433,0.007873589
2835,2633.32,0.09694201,0.00783461
2840,2630.91,0.09635109,0.007786853
2845,2628.5,0.09575641,0.00773879
2850,2626.09,0.0952328,0.007696474
2855,2623.68,0.0946419,0.00764872
2860,2621.27,0.0939602,0.00759362
2865,2618.86,0.09327251,0.00753805
2870,2616.45,0.09268618,0.007490664
2875,2614.04,0.09200102,0.007435291
2880,2611.63,0.09134191,0.00738202
2885,2609.22,0.09065831,0.00732678
2890,2606.81,0.08995199,0.007269694
2895,2604.39,0.08935422,0.007221383
2900,2601.98,0.08894789,0.007188545
2905,2599.57,0.08880955,0.00717736
2910,2597.16,0.08873159,0.00717106
2915,2594.75,0.08861303,0.00716148
2920,2592.34,0.08847731,0.007150514
2925,2589.93,0.0879795,0.00711028
2930,2587.52,0.08722466,0.007049278
2935,2585.11,0.08654666,0.00699448
2940,2582.7,0.08575094,0.00693018
2945,2580.29,0.08504206,0.00687289
2950,2577.88,0.08439535,0.00682062
2955,2575.47,0.08371943,0.006765994
2960,2573.06,0.08299261,0.00670725
2965,2570.65,0.08229911,0.00665121
2970,2568.24,0.08159214,0.00659407
2975,2565.83,0.08084023,0.006533304
2980,2563.41,0.08006519,0.006470667
2985,2561,0.07930839,0.006409505
2990,2558.59,0.0783653,0.00633329
2995,2556.18,0.07755715,0.00626797
3000,2553.77,0.07682544,0.006208839
3005,2551.36,0.07593906,0.006137204
3010,2548.95,0.07504892,0.00606527
3015,2546.54,0.07419425,0.005996193
3020,2544.13,0.07327336,0.005921769
3025,2541.72,0.0723333,0.005845798
3030,2539.31,0.07135236,0.00576652
3035,2536.9,0.0704715,0.00569533
3040,2534.49,0.06953204,0.0056194
3045,2532.08,0.06858945,0.005543227
3050,2529.67,0.0678708,0.00548515
3055,2527.26,0.06713939,0.00542604
3060,2524.85,0.06630963,0.00535898
3065,2522.43,0.06543261,0.005288099
3070,2520.02,0.06465918,0.00522559
3075,2517.61,0.0639922,0.00517169
3080,2515.2,0.0634127,0.005124857
3085,2512.79,0.06286651,0.005080713
3090,2510.38,0.0623502,0.00503898
3095,2507.97,0.06179297,0.00499395
3100,2505.56,0.0611964,0.004945743
3105,2503.15,0.0605509,0.004893574
3110,2500.74,0.060034,0.0048518
3115,2498.33,0.059467,0.00480597
3120,2495.92,0.0587938,0.004751566
3125,2493.51,0.05822575,0.00470566
3130,2491.1,0.05776894,0.00466874
3135,2488.69,0.0573251,0.00463287
3140,2486.28,0.0569562,0.00460305
3145,2483.87,0.05655539,0.00457066
3150,2481.45,0.0560242,0.00452773
3155,2479.04,0.0553892,0.004476413
3160,2476.63,0.05465126,0.00441678
3165,2474.22,0.0539221,0.004357845
3170,2471.81,0.05324197,0.004302882
3175,2469.4,0.0525237,0.004244836
3180,2466.99,0.0518378,0.004189401
3185,2464.58,0.051177,0.004136
3190,2462.17,0.05048895,0.00408039
3195,2459.76,0.04986465,0.00402994
3200,2457.35,0.04932022,0.00398594
3205,2454.94,0.048919,0.00395351
3210,2452.53,0.0486786,0.003934085
3215,2450.12,0.0484698,0.003917206
3220,2447.71,0.0482069,0.00389596
3225,2445.3,0.04778099,0.00386154
3230,2442.89,0.0473646,0.00382789
3235,2440.47,0.04686916,0.00378785
3240,2438.06,0.04617703,0.00373191
3245,2435.65,0.04534304,0.00366451
3250,2433.24,0.0444013,0.0035884
3255,2430.83,0.0434792,0.00351388
3260,2428.42,0.0425477,0.0034386
3265,2426.01,0.04157865,0.003360282
3270,2423.6,0.04071486,0.00329047
3275,2421.19,0.0399961,0.003232388
3280,2418.78,0.0393176,0.00317755
3285,2416.37,0.03866589,0.00312488
3290,2413.96,0.0380592,0.00307585
3295,2411.55,0.0374382,0.00302566
3300,2409.14,0.0368686,0.00297963
3305,2406.73,0.0363177,0.00293511
3310,2404.32,0.0357558,0.00288969
3315,2401.91,0.0351875,0.002843764
3320,2399.49,0.03471446,0.00280554
3325,2397.08,0.03421545,0.00276521
3330,2394.67,0.0337474,0.00272738
3335,2392.26,0.03339839,0.002699174
3340,2389.85,0.03315246,0.0026793
3345,2387.44,0.0329013,0.002659
3350,2385.03,0.0324283,0.00262077
3355,2382.62,0.03187728,0.00257624
3360,2380.21,0.0312021,0.00252167
3365,2377.8,0.0304154,0.0024581
3370,2375.39,0.02951777,0.002385552
3375,2372.98,0.0285509,0.00230741
3380,2370.57,0.027479,0.00222078
3385,2368.16,0.0264494,0.00213757
3390,2365.75,0.0256388,0.002072065
3395,2363.34,0.0249327,0.002015
3400,2360.93,0.0245203,0.00198167
3405,2358.51,0.02457,0.00198569
3410,2356.1,0.0245195,0.0019816
3415,2353.69,0.0245422,0.00198344
3420,2351.28,0.0249336,0.002015069
3425,2348.87,0.0252931,0.00204413
3430,2346.46,0.0248266,0.00200642
3435,2344.05,0.024253,0.00196006
3440,2341.64,0.0242151,0.001957
3445,2339.23,0.0244517,0.00197612
3450,2336.82,0.0248353,0.00200713
3455,2334.41,0.0252296,0.00203899
3460,2332,0.02521336,0.00203768
3465,2329.59,0.024897,0.00201212
3470,2327.18,0.0246288,0.00199043
3475,2324.77,0.0245122,0.001981012
3480,2322.36,0.0244436,0.00197547
3485,2319.95,0.0244925,0.00197942
3490,2317.54,0.0244714,0.00197772
3495,2315.12,0.0242527,0.00196004
3500,2312.71,0.02403295,0.00194228
3505,2310.3,0.0239624,0.00193658
3510,2307.89,0.0240935,0.00194718
3515,2305.48,0.0242127,0.001956811
3520,2303.07,0.02428925,0.001962996
3525,2300.66,0.0243652,0.001969133
3530,2298.25,0.0243748,0.00196991
3535,2295.84,0.0244046,0.00197232
3540,2293.43,0.0244858,0.00197888
3545,2291.02,0.0245001,0.001980039
3550,2288.61,0.0245899,0.00198729
3555,2286.2,0.02463913,0.00199127
3560,2283.79,0.0246575,0.00199276
3565,2281.38,0.0247083,0.00199686
3570,2278.97,0.0247335,0.0019989
3575,2276.56,0.0248268,0.00200644
3580,2274.14,0.02501738,0.00202184
3585,2271.73,0.0253305,0.00204715
3590,2269.32,0.0257519,0.00208121
3595,2266.91,0.0262128,0.00211845
3600,2264.5,0.02667737,0.002155998
3605,2262.09,0.0269867,0.002181
3610,2259.68,0.0271491,0.00219412
3615,2257.27,0.0272709,0.00220397
3620,2254.86,0.0272969,0.00220607
3625,2252.45,0.0272559,0.00220275
3630,2250.04,0.0271982,0.00219809
3635,2247.63,0.02714,0.00219339
3640,2245.22,0.027109,0.00219088
3645,2242.81,0.0271443,0.00219374
3650,2240.4,0.0271003,0.00219018
3655,2237.99,0.02705729,0.002186702
3660,2235.58,0.02718687,0.00219717
3665,2233.16,0.02740097,0.00221448
3670,2230.75,0.0275091,0.00222322
3675,2228.34,0.0276897,0.00223781
3680,2225.93,0.02787292,0.00225262
3685,2223.52,0.0280756,0.002269
3690,2221.11,0.028293,0.00228657
3695,2218.7,0.0285171,0.00230468
3700,2216.29,0.0286692,0.00231698
3705,2213.88,0.02882,0.002329163
3710,2211.47,0.0289812,0.00234219
3715,2209.06,0.02920103,0.002359954
3720,2206.65,0.0295122,0.0023851
3725,2204.24,0.0297904,0.00240759
3730,2201.83,0.0301492,0.00243658
3735,2199.42,0.03059256,0.002472414
3740,2197.01,0.0310693,0.002510941
3745,2194.6,0.0315747,0.00255179
3750,2192.18,0.03216374,0.00259939
3755,2189.77,0.0328416,0.00265417
3760,2187.36,0.03371167,0.00272449
3765,2184.95,0.03468716,0.00280333
3770,2182.54,0.0356574,0.00288174
3775,2180.13,0.0365713,0.0029556
3780,2177.72,0.0374422,0.003025985
3785,2175.31,0.0383316,0.00309787
3790,2172.9,0.0392289,0.00317038
3795,2170.49,0.040076,0.003238843
3800,2168.08,0.04087484,0.0033034
3805,2165.67,0.041567,0.00335934
3810,2163.26,0.0423362,0.00342151
3815,2160.85,0.0430492,0.00347913
3820,2158.44,0.04364586,0.00352735
3825,2156.03,0.04415977,0.00356888
3830,2153.62,0.04462123,0.00360618
3835,2151.2,0.0449754,0.0036348
3840,2148.79,0.04514754,0.00364871
3845,2146.38,0.045163,0.003649963
3850,2143.97,0.0451149,0.00364607
3855,2141.56,0.0449492,0.003632679
3860,2139.15,0.0446502,0.00360852
3865,2136.74,0.04428041,0.00357863
3870,2134.33,0.04384172,0.00354318
3875,2131.92,0.04340315,0.00350773
3880,2129.51,0.0428307,0.00346147
3885,2127.1,0.0422004,0.003410534
3890,2124.69,0.04150474,0.00335431
3895,2122.28,0.0406643,0.00328639
3900,2119.87,0.0398003,0.003216559
3905,2117.46,0.0388973,0.00314358
3910,2115.05,0.03796184,0.00306798
3915,2112.64,0.0370132,0.00299131
3920,2110.22,0.0359821,0.00290799
3925,2107.81,0.03497863,0.00282688
3930,2105.4,0.0339998,0.00274778
3935,2102.99,0.03297007,0.00266456
3940,2100.58,0.03195727,0.002582706
3945,2098.17,0.03102243,0.00250715
3950,2095.76,0.0301567,0.00243719
3955,2093.35,0.0293628,0.00237303
3960,2090.94,0.0286044,0.00231173
3965,2088.53,0.02782929,0.00224909
3970,2086.12,0.02707076,0.00218779
3975,2083.71,0.0263611,0.00213044
3980,2081.3,0.0257068,0.00207756
3985,2078.89,0.0251217,0.00203027
3990,2076.48,0.02459848,0.00198799
3995,2074.07,0.0242327,0.00195843
4000,2071.66,0.0240049,0.00194002
4005,2069.24,0.0238253,0.0019255
4010,2066.83,0.0236883,0.00191443
4015,2064.42,0.0236678,0.00191277
4020,2062.01,0.0237321,0.001917966
4025,2059.6,0.0238872,0.0019305
4030,2057.19,0.0240582,0.001944325
4035,2054.78,0.02425015,0.001959836
4040,2052.37,0.02460432,0.00198846
4045,2049.96,0.0250179,0.00202188
4050,2047.55,0.025291,0.00204395
4055,2045.14,0.0254329,0.00205543
4060,2042.73,0.02539754,0.00205257
4065,2040.32,0.0252281,0.00203888
4070,2037.91,0.0251002,0.00202854
4075,2035.5,0.0249395,0.00201555
4080,2033.09,0.0249307,0.00201484
4085,2030.68,0.02505064,0.00202453
4090,2028.27,0.0251499,0.002032555
4095,2025.85,0.0252789,0.00204298
4100,2023.44,0.0253129,0.002045725
4105,2021.03,0.0252817,0.002043201
4110,2018.62,0.0251359,0.00203142
4115,2016.21,0.0249244,0.002014327
4120,2013.8,0.0247636,0.00200133
4125,2011.39,0.0245219,0.001981802
4130,2008.98,0.0243073,0.00196445
4135,2006.57,0.0239717,0.00193733
4140,2004.16,0.0235469,0.001903004
4145,2001.75,0.0231024,0.00186708
4150,1999.34,0.0225621,0.00182342
4155,1996.93,0.0220909,0.001785332
4160,1994.52,0.02154994,0.001741612
4165,1992.11,0.0208842,0.0016878
4170,1989.7,0.0204432,0.00165217
4175,1987.29,0.0201106,0.00162529
4180,1984.87,0.01983416,0.001602947
4185,1982.46,0.01962459,0.00158601
4190,1980.05,0.0195377,0.00157899
4195,1977.64,0.0192134,0.00155278
4200,1975.23,0.018808,0.00152002
4205,1972.82,0.0185952,0.00150282
4210,1970.41,0.0183624,0.001484
4215,1968,0.0180483,0.00145862
4220,1965.59,0.0177081,0.00143112
4225,1963.18,0.0174536,0.00141055
4230,1960.77,0.0171713,0.00138774
4235,1958.36,0.0167574,0.00135429
4240,1955.95,0.0163738,0.00132329
4245,1953.54,0.01599145,0.00129239
4250,1951.13,0.0155591,0.00125745
4255,1948.72,0.0151204,0.00122199
4260,1946.31,0.01454246,0.00117529
4265,1943.89,0.0137244,0.00110918
4270,1941.48,0.0128998,0.00104253
4275,1939.07,0.0122534,0.0009902893
4280,1936.66,0.0113738,0.000919199
4285,1934.25,0.01046741,0.00084595
4290,1931.84,0.009698987,0.000783848
4295,1929.43,0.009049177,0.000731332
4300,1927.02,0.008469582,0.0006844903
4305,1924.61,0.00778437,0.000629113
4310,1922.2,0.007227659,0.000584121
4315,1919.79,0.0068258,0.000551644
4320,1917.38,0.006382942,0.000515853
4325,1914.97,0.006431699,0.0005197937
4330,1912.56,0.006234288,0.0005038395
4335,1910.15,0.00580597,0.000469224
4340,1907.74,0.0054785,0.0004427587
4345,1905.33,0.00525022,0.000424309
4350,1902.91,0.005132675,0.0004148099
4355,1900.5,0.00512588,0.000414261
4360,1898.09,0.00532925,0.0004306967
4365,1895.68,0.00564671,0.000456353
4370,1893.27,0.006098628,0.000492876
4375,1890.86,0.00624132,0.0005044079
4380,1888.45,0.00632572,0.0005112289
4385,1886.04,0.0065043,0.000525661
4390,1883.63,0.00612903,0.0004953325
4395,1881.22,0.00575531,0.0004651293
4400,1878.81,0.0054884,0.000443558
4405,1876.4,0.00549448,0.00044405
4410,1873.99,0.005581856,0.000451112
4415,1871.58,0.005605817,0.000453048
4420,1869.17,0.00550818,0.0004451576
4425,1866.76,0.00602758,0.0004871338
4430,1864.35,0.006640911,0.000536702
4435,1861.93,0.00678408,0.0005482724
4440,1859.52,0.00673616,0.000544399
4445,1857.11,0.00648689,0.000524254
4450,1854.7,0.00616491,0.0004982324
4455,1852.29,0.006008625,0.000485602
4460,1849.88,0.00581801,0.0004701969
4465,1847.47,0.005635977,0.000455485
4470,1845.06,0.00503397,0.000406833
4475,1842.65,0.005150676,0.000416265
4480,1840.24,0.005800128,0.000468752
4485,1837.83,0.005851269,0.000472885
4490,1835.42,0.005764246,0.000465852
4495,1833.01,0.00558352,0.000451246
4500,1830.6,0.005011797,0.000405041
4505,1828.19,0.004845619,0.000391611
4510,1825.78,0.00483954,0.000391119
4515,1823.37,0.004644513,0.000375358
4520,1820.95,0.004512906,0.000364722
4525,1818.54,0.00418842,0.000338497
4530,1816.13,0.00381589,0.0003083906
4535,1813.72,0.00358522,0.000289748
4540,1811.31,0.003093481,0.000250007
4545,1808.9,0.00290334,0.000234641
4550,1806.49,0.002748847,0.000222155
4555,1804.08,0.00220227,0.000177982
4560,1801.67,0.00160491,0.000129705
4565,1799.26,0.00126338,0.0001021032
4570,1796.85,0.00109756,8.8702e-05
4575,1794.44,0.000436306,3.52612e-05
4580,1792.03,-0.000413895,-3.34499e-05
4585,1789.62,-5.054474e-05,-4.0849e-06
4590,1787.21,-5.42402e-05,-4.383559e-06
4595,1784.8,-0.000817895,-6.610021e-05
4600,1782.39,-0.00100839,-8.149566e-05
4605,1779.97,-0.00121701,-9.83555e-05
4610,1777.56,-0.00147414,-0.000119136
4615,1775.15,-0.00219417,-0.000177327
4620,1772.74,-0.00359476,-0.000290519
4625,1770.33,-0.00337458,-0.0002727248
4630,1767.92,-0.00296426,-0.000239564
4635,1765.51,-0.002545476,-0.000205719
4640,1763.1,-0.002692461,-0.000217598
4645,1760.69,-0.00291777,-0.000235807
4650,1758.28,-0.002660513,-0.000215016
4655,1755.87,-0.002626896,-0.000212299
4660,1753.46,-0.00244951,-0.000197963
4665,1751.05,-0.003207326,-0.000259208
4670,1748.64,-0.0031215,-0.0002522714
4675,1746.23,-0.00267446,-0.000216143
4680,1743.82,-0.00261021,-0.00021095
4685,1741.41,-0.002968669,-0.00023992
4690,1738.99,-0.00300241,-0.000242647
4695,1736.58,-0.00283349,-0.000228995
4700,1734.17,-0.00418973,-0.000338603
4705,1731.76,-0.002748251,-0.000222107
4710,1729.35,-0.00149512,-0.000120832
4715,1726.94,-0.0005559921,-4.49339e-05
4720,1724.53,0.000217438,1.75728e-05
4725,1722.12,0.0009287596,7.506e-05
4730,1719.71,0.000821352,6.63796e-05
4735,1717.3,-3.21865e-05,-2.60123e-06
4740,1714.89,0.00109434,8.844191e-05
4745,1712.48,0.00232947,0.000188262
4750,1710.07,0.00266933,0.0002157289
4755,1707.66,0.00257611,0.000208195
4760,1705.25,0.00235105,0.0001900056
4765,1702.84,0.00240278,0.000194187
4770,1700.43,0.000924706,7.473245e-05
4775,1698.02,0.00200164,0.000161768
4780,1695.6,0.00228369,0.000184562
4785,1693.19,0.00396061,0.0003200865
4790,1690.78,0.004853487,0.0003922466
4795,1688.37,0.005162835,0.000417247
4800,1685.96,0.00437701,0.000353739
4805,1683.55,0.00398684,0.000322206
4810,1681.14,0.00628126,0.000507635
4815,1678.73,0.00740111,0.000598139
4820,1676.32,0.007398963,0.000597966
4825,1673.91,0.00781155,0.0006313095
4830,1671.5,0.008679628,0.000701466
4835,1669.09,0.009078741,0.000733721
4840,1666.68,0.0107362,0.0008676749
4845,1664.27,0.0113397,0.0009164432
4850,1661.86,0.0113647,0.000918466
4855,1659.45,0.0124139,0.00100326
4860,1657.04,0.0130721,0.00105646
4865,1654.62,0.0121675,0.000983343
4870,1652.21,0.0128752,0.00104054
4875,1649.8,0.01788,0.00144501
4880,1647.39,0.0204799,0.00165514
4885,1644.98,0.0250849,0.00202729
4890,1642.57,0.03328228,0.00268979
4895,1640.16,0.0466802,0.00377258
4900,1637.75,0.06976032,0.005637854
4905,1635.34,0.09385657,0.007585252
4910,1632.93,0.0978955,0.007911668
4915,1630.52,0.0916839,0.007409659
4920,1628.11,0.09358275,0.00756312
4925,1625.7,0.110966,0.00896799
4930,1623.29,0.137688,0.0111276
4935,1620.88,0.15136,0.0122325
4940,1618.47,0.139591,0.0112814
4945,1616.06,0.1166991,0.009431328
4950,1613.64,0.0987128,0.00797772
4955,1611.23,0.08309829,0.006715795
4960,1608.82,0.06820464,0.00551213
4965,1606.41,0.0546564,0.00441719
4970,1604,0.0429436,0.00347059
4975,1601.59,0.03267193,0.00264046
4980,1599.18,0.0241575,0.00195235
4985,1596.77,0.0181124,0.0014638
4990,1594.36,0.0140939,0.00113903
4995,1591.95,0.011423,0.000923177
5000,1589.54,0.00975108,0.000788058
5005,1587.13,0.008628964,0.0006973712
5010,1584.72,0.008097649,0.0006544316
5015,1582.31,0.00819898,0.000662621
5020,1579.9,0.008752584,0.000707362
5025,1577.49,0.0088166,0.0007125354
5030,1575.08,0.00838995,0.000678055
5035,1572.66,0.008178949,0.0006610021
5040,1570.25,0.00614095,0.0004962959
5045,1567.84,0.0052321,0.0004228448
5050,1565.43,0.005059719,0.000408914
5055,1563.02,0.00505471,0.000408509
5060,1560.61,0.00385737,0.0003117433
5065,1558.2,0.004525423,0.0003657333
5070,1555.79,0.01102829,0.0008912787
5075,1553.38,0.0210155,0.00169842
5080,1550.97,0.0384463,0.00310713
5085,1548.56,0.06410658,0.005180933
5090,1546.15,0.0897038,0.007249635
5095,1543.74,0.100873,0.008152301
5100,1541.33,0.088545,0.00715598
5105,1538.92,0.06162703,0.00498054
5110,1536.51,0.03932655,0.00317827
5115,1534.1,0.0235045,0.00189957
5120,1531.68,0.0142672,0.00115304
5125,1529.27,0.009676814,0.0007820558
5130,1526.86,0.00620425,0.0005014117
5135,1524.45,0.0038209,0.000308795
5140,1522.04,0.00137901,0.000111448
5145,1519.63,0.0005348921,4.32286e-05
5150,1517.22,0.0004132986,3.34018e-05
5155,1514.81,0.000284314,2.29776e-05
5160,1512.4,0.000212193,1.71489e-05
5165,1509.99,-0.000224948,-1.81797e-05
5170,1507.58,-0.00178146,-0.0001439734
5175,1505.17,-0.0007379055,-5.96357e-05
5180,1502.76,0.00309086,0.0002497954
5185,1500.35,0.00752568,0.0006082067
5190,1497.94,0.0184588,0.0014918
5195,1495.53,0.0418677,0.00338364
5200,1493.12,0.09811807,0.007929656
5205,1490.7,0.223486,0.0180616
5210,1488.29,0.248976,0.0201216
5215,1485.88,0.127631,0.0103148
5220,1483.47,0.0598669,0.004838293
5225,1481.06,0.0325923,0.00263403
5230,1478.65,0.0179036,0.00144692
5235,1476.24,0.0101218,0.00081802
5240,1473.83,0.0062505,0.0005051498
5245,1471.42,0.005191922,0.0004195981
5250,1469.01,0.00629759,0.0005089553
5255,1466.6,0.007059455,0.0005705274
5260,1464.19,0.009293199,0.0007510529
5265,1461.78,0.01557827,0.001259
5270,1459.37,0.0301368,0.00243558
5275,1456.96,0.06510174,0.00526136
5280,1454.55,0.0908593,0.00734302
5285,1452.14,0.0701112,0.005666207
5290,1449.72,0.0416107,0.00336287
5295,1447.31,0.0251293,0.00203089
5300,1444.9,0.0166084,0.00134225
5305,1442.49,0.00961709,0.000777229
5310,1440.08,0.00482631,0.00039005
5315,1437.67,0.001347065,0.000108866
5320,1435.26,-0.0003709793,-2.99816e-05
5325,1432.85,-0.0006520748,-5.2699e-05
5330,1430.44,-0.001527071,-0.000123414
5335,1428.03,-0.00185943,-0.000150274
5340,1425.62,-0.00189567,-0.000153203
5345,1423.21,-0.00207174,-0.000167433
5350,1420.8,-0.00290453,-0.000234737
5355,1418.39,-0.00421357,-0.00034053
5360,1415.98,-0.004073739,-0.000329229
5365,1413.57,-0.00427461,-0.000345463
5370,1411.16,-0.00439227,-0.0003549719
5375,1408.75,-0.00397408,-0.000321175
5380,1406.33,-0.003086567,-0.000249449
5385,1403.92,-0.001611948,-0.000130274
5390,1401.51,0.000113487,9.171754e-06
5395,1399.1,0.00124538,0.000100648
5400,1396.69,0.00250471,0.000202424
5405,1394.28,0.00343645,0.000277725
5410,1391.87,0.004105687,0.000331811
5415,1389.46,0.00283921,0.000229458
5420,1387.05,0.000246644,1.993315e-05
5425,1384.64,-0.00196385,-0.000158714
5430,1382.23,-0.00442994,-0.000358016
5435,1379.82,-0.00657964,-0.00053175
5440,1377.41,-0.008069515,-0.000652158
5445,1375,-0.00925827,-0.00074823
5450,1372.59,-0.009705186,-0.0007843487
5455,1370.18,-0.009745657,-0.0007876195
5460,1367.77,-0.00991827,-0.00080157
5465,1365.35,-0.0102395,-0.0008275292
5470,1362.94,-0.0110366,-0.000891948
5475,1360.53,-0.0110269,-0.000891168
5480,1358.12,-0.0103984,-0.0008403716
5485,1355.71,-0.009731352,-0.000786463
5490,1353.3,-0.009054303,-0.000731746
5495,1350.89,-0.008962929,-0.0007243614
5500,1348.48,-0.009871781,-0.0007978125
5505,1346.07,-0.0119333,-0.000964421
5510,1343.66,-0.014428,-0.00116604
5515,1341.25,-0.0168675,-0.00136319
5520,1338.84,-0.0189175,-0.00152886
5525,1336.43,-0.0202153,-0.00163375
5530,1334.02,-0.0213201,-0.00172304
5535,1331.61,-0.0223425,-0.001805665
5540,1329.2,-0.0236647,-0.00191252
5545,1326.79,-0.0254319,-0.00205534
5550,1324.37,-0.0272852,-0.00220512
5555,1321.96,-0.0295246,-0.002386106
5560,1319.55,-0.0317057,-0.00256237
5565,1317.14,-0.0339134,-0.00274079
5570,1314.73,-0.0357614,-0.00289015
5575,1312.32,-0.0375465,-0.003034415
5580,1309.91,-0.0393034,-0.0031764
5585,1307.5,-0.04071915,-0.00329082
5590,1305.09,-0.0420134,-0.003395418
5595,1302.68,-0.0425432,-0.00343823
5600,1300.27,-0.04267502,-0.00344889
5605,1297.86,-0.0429027,-0.003467289
5610,1295.45,-0.0427945,-0.00345854
5615,1293.04,-0.043416,-0.00350877
5620,1290.63,-0.0439013,-0.00354799
5625,1288.22,-0.0424162,-0.00342797
5630,1285.81,-0.0420005,-0.00339438
5635,1283.39,-0.0415376,-0.00335697
5640,1280.98,-0.0430429,-0.00347862
5645,1278.57,-0.04636264,-0.00374691
5650,1276.16,-0.05300951,-0.0042841
5655,1273.75,-0.0551229,-0.00445489
5660,1271.34,-0.049871,-0.004030446
5665,1268.93,-0.06017351,-0.00486307
5670,1266.52,-0.06991196,-0.00565011
5675,1264.11,-0.0793757,-0.006414948
5680,1261.7,-0.130876,-0.0105771
5685,1259.29,-0.126865,-0.0102529
5690,1256.88,-0.124007,-0.0100219
5695,1254.47,-0.199749,-0.0161432
5700,1252.06,-0.265475,-0.021455
5705,1249.65,-0.23933,-0.019342
5710,1247.24,-0.160027,-0.012933
5715,1244.83,-0.118325,-0.009562748
5720,1242.41,-0.128216,-0.0103621
5725,1240,-0.0943599,-0.00762593
5730,1237.59,-0.0662863,-0.005357094
5735,1235.18,-0.210246,-0.0169915
5740,1232.77,-0.242373,-0.019588
5745,1230.36,-0.206913,-0.0167222
5750,1227.95,-0.163299,-0.0131974
5755,1225.54,-0.197036,-0.0159239
5760,1223.13,-0.283956,-0.0229486
5765,1220.72,-0.185779,-0.01501418
5770,1218.31,-0.204916,-0.0165608
5775,1215.9,-0.143542,-0.0116007
5780,1213.49,-0.115643,-0.009345959
5785,1211.08,-0.1525302,-0.0123271
5790,1208.67,-0.174765,-0.0141241
5795,1206.26,-0.174397,-0.0140943
5800,1203.85,-0.112257,-0.00907229
5805,1201.43,-0.0506964,-0.00409715
5810,1199.02,-0.06793594,-0.005490412
5815,1196.61,-0.0922606,-0.00745627
5820,1194.2,-0.142769,-0.0115383
5825,1191.79,-0.09516144,-0.007690708
5830,1189.38,-0.105012,-0.00848682
5835,1186.97,-0.197013,-0.0159221
5840,1184.56,-0.197844,-0.0159892
5845,1182.15,-0.274191,-0.0221594
5850,1179.74,-0.332212,-0.0268486
5855,1177.33,-0.357582,-0.0288989
5860,1174.92,-0.373126,-0.0301551
5865,1172.51,-0.246136,-0.0198921
5870,1170.1,-0.166731,-0.0134748
5875,1167.69,-0.1854229,-0.0149854
5880,1165.28,-0.242557,-0.01960285
5885,1162.87,-0.339453,-0.0274337
5890,1160.45,-0.331201,-0.0267668
5895,1158.04,-0.3904488,-0.03155509
5900,1155.63,-0.412108,-0.03330553
5905,1153.22,-0.3484702,-0.0281625
5910,1150.81,-0.392323,-0.03170656
5915,1148.4,-0.506977,-0.0409726
5920,1145.99,-0.4865253,-0.03931975
5925,1143.58,-0.445837,-0.0360314
5930,1141.17,-0.5424259,-0.0438375
5935,1138.76,-0.5586705,-0.0451503
5940,1136.35,-0.597768,-0.0483101
5945,1133.94,-1.03528,-0.0836685
5950,1131.53,-0.760529,-0.061464
5955,1129.12,-0.562058,-0.04542411
5960,1126.71,-1.24767,-0.100834
5965,1124.3,,
5970,1121.89,,
5975,1119.48,-0.8990488,-0.07265887
5980,1117.06,-0.6860733,-0.0554467
5985,1114.65,-2.00739,-0.162233
5990,1112.24,,
5995,1109.83,-2.16301,-0.174809
6000,1107.42,,
6005,1105.01,,
6010,1102.6,,
6015,1100.19,-0.79316,-0.0641012
6020,1097.78,-0.8903203,-0.0719534
6025,1095.37,,
6030,1092.96,,
6035,1090.55,,
6040,1088.14,,
6045,1085.73,,
6050,1083.32,,
6055,1080.91,-1.83658,-0.148428
6060,1078.5,,
6065,1076.08,,
6070,1073.67,,
6075,1071.26,-1.53052,-0.123693
6080,1068.85,-1.46419,-0.118332
6085,1066.44,-3.0759,-0.248587
6090,1064.03,-0.8643079,-0.06985119
6095,1061.62,-0.38041,-0.0307438
6100,1059.21,-0.691466,-0.0558825
6105,1056.8,-1.41052,-0.113995
6110,1054.39,-1.16353,-0.0940336
6115,1051.98,-0.6954298,-0.05620289
6120,1049.57,-0.17574,-0.0142029
6125,1047.16,-0.2783575,-0.0224962
6130,1044.75,-0.6906967,-0.0558204
6135,1042.34,-0.393067,-0.0317667
6140,1039.93,-0.153506,-0.012406
6145,1037.52,-0.04046321,-0.00327013
6150,1035.1,0.4138,0.0334423
6155,1032.69,0.900644,0.07278779
6160,1030.28,,
6165,1027.87,1.82973,0.147875
6170,1025.46,,
6175,1023.05,,
6180,1020.64,,
6185,1018.23,1.9271,0.155743
6190,1015.82,,
6195,1013.41,,
6200,1011,,
6205,1008.59,,
6210,1006.18,,
6215,1003.77,,
6220,1001.36,,
6223,999.91,,